{"resourceType":"Bundle","id":"ReferralAuthorizationResponseBundleExample","meta":{"profile":["http://hl7.org/fhir/us/davinci-pas/StructureDefinition/profile-pas-response-bundle"]},"type":"collection","timestamp":"2005-05-02T11:02:00+05:00","entry":[{"fullUrl":"http://example.org/fhir/ClaimResponse/ReferralAuthorizationResponseExample","resource":{"resourceType":"ClaimResponse","id":"ReferralAuthorizationResponseExample","meta":{"profile":["http://hl7.org/fhir/us/davinci-pas/StructureDefinition/profile-claimresponse"]},"text":{"status":"extensions","div":"<div xmlns=\"http://www.w3.org/1999/xhtml\"><p><b>Generated Narrative</b></p><p><b>identifier</b>: id: 111099</p><p><b>status</b>: active</p><p><b>type</b>: <span title=\"Codes: {http://terminology.hl7.org/CodeSystem/claim-type professional}\">Professional</span></p><p><b>use</b>: preauthorization</p><p><b>patient</b>: <a href=\"#Patient_SubscriberExample\">See above (Patient/SubscriberExample)</a></p><p><b>created</b>: May 2, 2005, 6:02:00 AM</p><p><b>insurer</b>: <a href=\"#Organization_InsurerExample\">See above (Organization/InsurerExample)</a></p><p><b>requestor</b>: <a href=\"#Organization_UMOExample\">See above (Organization/UMOExample)</a></p><p><b>outcome</b>: complete</p><blockquote><p><b>item</b></p><blockquote><p><b>ReviewAction</b></p><h3>Urls</h3><table class=\"grid\"><tr><td>-</td></tr><tr><td>*</td></tr></table><p><b>value</b>: AUTH0001</p><h3>Urls</h3><table class=\"grid\"><tr><td>-</td></tr><tr><td>*</td></tr></table><p><b>value</b>: <span title=\"Codes: {http://codesystem.x12.org/005010/306 A1}\">Certified in total</span></p></blockquote><p><b>AuthorizedDate</b>: 2005-05-02 --&gt; 2005-06-02</p><p><b>itemSequence</b>: 1</p><h3>Adjudications</h3><table class=\"grid\"><tr><td>-</td><td><b>Category</b></td></tr><tr><td>*</td><td><span title=\"Codes: {http://terminology.hl7.org/CodeSystem/adjudication submitted}\">Submitted Amount</span></td></tr></table></blockquote></div>"},"identifier":[{"system":"http://example.org/PATIENT_EVENT_TRACE_NUMBER","value":"111099","assigner":{"identifier":{"system":"http://example.org/USER_ASSIGNED","value":"9012345678"}}}],"status":"active","type":{"coding":[{"system":"http://terminology.hl7.org/CodeSystem/claim-type","code":"professional"}]},"use":"preauthorization","patient":{"reference":"Patient/SubscriberExample"},"created":"2005-05-02T11:02:00+05:00","insurer":{"reference":"Organization/InsurerExample"},"requestor":{"reference":"Organization/UMOExample"},"outcome":"complete","item":[{"extension":[{"extension":[{"url":"number","valueString":"AUTH0001"},{"url":"http://hl7.org/fhir/us/davinci-pas/StructureDefinition/extension-reviewActionCode","valueCodeableConcept":{"coding":[{"system":"http://codesystem.x12.org/005010/306","code":"A1","display":"Certified in total"}]}}],"url":"http://hl7.org/fhir/us/davinci-pas/StructureDefinition/extension-reviewAction"},{"url":"http://hl7.org/fhir/us/davinci-pas/StructureDefinition/extension-itemAuthorizedDate","valuePeriod":{"start":"2005-05-02","end":"2005-06-02"}}],"itemSequence":1,"adjudication":[{"category":{"coding":[{"system":"http://terminology.hl7.org/CodeSystem/adjudication","code":"submitted"}]}}]}]}},{"fullUrl":"http://example.org/fhir/Organization/UMOExample","resource":{"resourceType":"Organization","id":"UMOExample","meta":{"profile":["http://hl7.org/fhir/us/davinci-pas/StructureDefinition/profile-requestor"]},"text":{"status":"generated","div":"<div xmlns=\"http://www.w3.org/1999/xhtml\"><p><b>Generated Narrative</b></p><p><b>identifier</b>: id: 8189991234</p><p><b>active</b>: true</p><p><b>type</b>: <span title=\"Codes: {https://codesystem.x12.org/005010/98 X3}\">X3</span></p><p><b>name</b>: DR. JOE SMITH CORPORATION</p><p><b>address</b>: 111 1ST STREET SAN DIEGO CA 92101 US </p></div>"},"identifier":[{"system":"http://hl7.org/fhir/sid/us-npi","value":"8189991234"}],"active":true,"type":[{"coding":[{"system":"https://codesystem.x12.org/005010/98","code":"X3"}]}],"name":"DR. JOE SMITH CORPORATION","address":[{"line":["111 1ST STREET"],"city":"SAN DIEGO","state":"CA","postalCode":"92101","country":"US"}]}},{"fullUrl":"http://example.org/fhir/Organization/InsurerExample","resource":{"resourceType":"Organization","id":"InsurerExample","meta":{"profile":["http://hl7.org/fhir/us/davinci-pas/StructureDefinition/profile-insurer"]},"text":{"status":"generated","div":"<div xmlns=\"http://www.w3.org/1999/xhtml\"><p><b>Generated Narrative</b></p><p><b>identifier</b>: id: 789312</p><p><b>active</b>: true</p><p><b>type</b>: <span title=\"Codes: {https://codesystem.x12.org/005010/98 PR}\">PR</span></p><p><b>name</b>: MARYLAND CAPITAL INSURANCE COMPANY</p></div>"},"identifier":[{"system":"http://hl7.org/fhir/sid/us-npi","value":"789312"}],"active":true,"type":[{"coding":[{"system":"https://codesystem.x12.org/005010/98","code":"PR"}]}],"name":"MARYLAND CAPITAL INSURANCE COMPANY"}},{"fullUrl":"http://example.org/fhir/Patient/SubscriberExample","resource":{"resourceType":"Patient","id":"SubscriberExample","meta":{"profile":["http://hl7.org/fhir/us/davinci-pas/StructureDefinition/profile-subscriber"]},"text":{"status":"extensions","div":"<div xmlns=\"http://www.w3.org/1999/xhtml\"><p><b>Generated Narrative</b></p><p><b>MilitaryStatus</b>: <span title=\"Codes: {https://codesystem.x12.org/005010/584 RU}\">RU</span></p><p><b>identifier</b>: id: 12345678901</p><p><b>name</b>: JOE SMITH </p><p><b>gender</b>: male</p></div>"},"extension":[{"url":"http://hl7.org/fhir/us/davinci-pas/StructureDefinition/extension-militaryStatus","valueCodeableConcept":{"coding":[{"system":"https://codesystem.x12.org/005010/584","code":"RU"}]}}],"identifier":[{"system":"http://example.org/MIN","value":"12345678901"}],"name":[{"family":"SMITH","given":["JOE"]}],"gender":"male"}}]}