{
    "resourceType": "Bundle",
    "id": "498c8f20-18a7-4a10-857d-0b39b275fea5",
    "meta": {
        "lastUpdated": "2022-03-22T12:27:36.675+00:00"
    },
    "type": "searchset",
    "total": 3,
    "link": [
        {
            "relation": "self",
            "url": "http://13.233.215.23:8080/ix-ecw-fhir-facade-server/fhir/r4/1005/Procedure?patient=1291938"
        }
    ],
    "entry": [
        {
            "fullUrl": "http://13.233.215.23:8080/ix-ecw-fhir-facade-server/fhir/r4/1005/Procedure/676767",
            "resource": {
                "resourceType": "Procedure",
                "id": "676767",
                "meta": {
                    "lastUpdated": "2021-01-07T15:16:48.000+00:00",
                    "profile": [
                        "http://hl7.org/fhir/us/core/StructureDefinition/us-core-procedure"
                    ]
                },
                "text": {
                    "status": "generated",
                    "div": "<div xmlns=\"http://www.w3.org/1999/xhtml\"><table border=\"1\"><tbody><tr><td>Status</td><td><span>COMPLETED</span></td></tr><tr><td>Procedure Code</td><td><span>24165007</span></td></tr><tr><td>Procedure Name</td><td><span>Alcoholism counseling</span></td></tr><tr><td>Procedure Performed Date</td><td><span>03 February 2019</span></td></tr></tbody></table></div>"
                },
                "status": "completed",
                "code": {
                    "coding": [
                        {
                            "system": "http://snomed.info/sct",
                            "code": "24165007",
                            "display": "Alcoholism counseling"
                        }
                    ],
                    "text": "Alcoholism counseling"
                },
                "subject": {
                    "reference": "Patient/1234-sdfgh-sdfghfd",
                    "type": "Patient"
                },
                "performedDateTime": "2019-02-03",
                "asserter": {
                    "reference": "Practitioner/f91cb963-a2eb-4b49-9e44-0784fdb37b23",
                    "type": "Practitioner"
                },
                "reasonCode": [
                    {
                        "coding": [
                            {
                                "system": "http://snomed.info/sct",
                                "code": "24165007",
                                "display": "Alcoholism counseling"
                            }
                        ],
                        "text": "Alcoholism counseling"
                    }
                ],
                "bodySite": [
                    {
                        "coding": [
                            {
                                "system": "http://snomed.info/sct",
                                "code": "24165007",
                                "display": "Alcoholism counseling"
                            }
                        ],
                        "text": "Alcoholism counseling"
                    }
                ]
            },
            "search": {
                "mode": "match"
            }
        },
        {
            "fullUrl": "http://13.233.215.23:8080/ix-ecw-fhir-facade-server/fhir/r4/1005/Provenance/PRO-676767",
            "resource": {
                "resourceType": "Provenance",
                "id": "PRO-676767",
                "meta": {
                    "profile": [
                        "http://hl7.org/fhir/us/core/StructureDefinition/us-core-provenance"
                    ]
                },
                "target": [
                    {
                        "reference": "Procedure/676767"
                    }
                ],
                "recorded": "2021-01-07T15:16:48.000+00:00",
                "agent": [
                    {
                        "type": {
                            "coding": [
                                {
                                    "system": "http://terminology.hl7.org/CodeSystem/provenance-participant-type",
                                    "code": "author",
                                    "display": "Author"
                                }
                            ]
                        },
                        "who": {
                            "reference": "Practitioner/f91cb963-a2eb-4b49-9e44-0784fdb37b23",
                            "type": "Practitioner"
                        }
                    }
                ]
            },
            "search": {
                "mode": "include"
            }
        },
        {
            "fullUrl": "http://13.233.215.23:8080/ix-ecw-fhir-facade-server/fhir/r4/1005/Procedure/686868",
            "resource": {
                "resourceType": "Procedure",
                "id": "686868",
                "meta": {
                    "lastUpdated": "2021-01-07T15:16:48.000+00:00",
                    "profile": [
                        "http://hl7.org/fhir/us/core/StructureDefinition/us-core-procedure"
                    ]
                },
                "text": {
                    "status": "generated",
                    "div": "<div xmlns=\"http://www.w3.org/1999/xhtml\"><table border=\"1\"><tbody><tr><td>Status</td><td><span>COMPLETED</span></td></tr><tr><td>Procedure Code</td><td><span>762993000</span></td></tr><tr><td>Procedure Name</td><td><span>Assessment using Morse Fall Scale (procedure)</span></td></tr><tr><td>Procedure Performed Date</td><td><span>03 February 2019</span></td></tr></tbody></table></div>"
                },
                "status": "completed",
                "code": {
                    "coding": [
                        {
                            "system": "http://snomed.info/sct",
                            "code": "762993000",
                            "display": "Assessment using Morse Fall Scale (procedure)"
                        },
                        {
                            "system": "http://snomed.info/sct",
                            "code": "762993000",
                            "display": "Assessment using Morse Fall Scale (procedure)"
                        }
                    ],
                    "text": "Assessment using Morse Fall Scale (procedure)"
                },
                "subject": {
                    "reference": "Patient/1234-sdfgh-sdfghfd",
                    "type": "Patient"
                },
                "performedDateTime": "2019-02-03",
                "asserter": {
                    "reference": "Practitioner/f91cb963-a2eb-4b49-9e44-0784fdb37b23",
                    "type": "Practitioner"
                }
            },
            "search": {
                "mode": "match"
            }
        },
        {
            "fullUrl": "http://13.233.215.23:8080/ix-ecw-fhir-facade-server/fhir/r4/1005/Provenance/PRO-686868",
            "resource": {
                "resourceType": "Provenance",
                "id": "PRO-686868",
                "meta": {
                    "profile": [
                        "http://hl7.org/fhir/us/core/StructureDefinition/us-core-provenance"
                    ]
                },
                "target": [
                    {
                        "reference": "Procedure/686868"
                    }
                ],
                "recorded": "2021-01-07T15:16:48.000+00:00",
                "agent": [
                    {
                        "type": {
                            "coding": [
                                {
                                    "system": "http://terminology.hl7.org/CodeSystem/provenance-participant-type",
                                    "code": "author",
                                    "display": "Author"
                                }
                            ]
                        },
                        "who": {
                            "reference": "Practitioner/f91cb963-a2eb-4b49-9e44-0784fdb37b23",
                            "type": "Practitioner"
                        }
                    }
                ]
            },
            "search": {
                "mode": "include"
            }
        },
        {
            "fullUrl": "http://13.233.215.23:8080/ix-ecw-fhir-facade-server/fhir/r4/1005/Procedure/696969",
            "resource": {
                "resourceType": "Procedure",
                "id": "696969",
                "meta": {
                    "lastUpdated": "2021-01-07T15:16:48.000+00:00",
                    "profile": [
                        "http://hl7.org/fhir/us/core/StructureDefinition/us-core-procedure"
                    ]
                },
                "text": {
                    "status": "generated",
                    "div": "<div xmlns=\"http://www.w3.org/1999/xhtml\"><table border=\"1\"><tbody><tr><td>Status</td><td><span>COMPLETED</span></td></tr><tr><td>Procedure Code</td><td><span>430193006</span></td></tr><tr><td>Procedure Name</td><td><span>Medication Reconciliation (procedure)</span></td></tr><tr><td>Procedure Performed Date</td><td><span>03 February 2018</span></td></tr></tbody></table></div>"
                },
                "status": "completed",
                "code": {
                    "coding": [
                        {
                            "system": "http://snomed.info/sct",
                            "code": "430193006",
                            "display": "Medication Reconciliation (procedure)"
                        }
                    ],
                    "text": "Medication Reconciliation (procedure)"
                },
                "subject": {
                    "reference": "Patient/1234-sdfgh-sdfghfd",
                    "type": "Patient"
                },
                "performedDateTime": "2018-02-03",
                "asserter": {
                    "reference": "Practitioner/f91cb963-a2eb-4b49-9e44-0784fdb37b23",
                    "type": "Practitioner"
                }
            },
            "search": {
                "mode": "match"
            }
        },
        {
            "fullUrl": "http://13.233.215.23:8080/ix-ecw-fhir-facade-server/fhir/r4/1005/Provenance/PRO-696969",
            "resource": {
                "resourceType": "Provenance",
                "id": "PRO-696969",
                "meta": {
                    "profile": [
                        "http://hl7.org/fhir/us/core/StructureDefinition/us-core-provenance"
                    ]
                },
                "target": [
                    {
                        "reference": "Procedure/696969"
                    }
                ],
                "recorded": "2021-01-07T15:16:48.000+00:00",
                "agent": [
                    {
                        "type": {
                            "coding": [
                                {
                                    "system": "http://terminology.hl7.org/CodeSystem/provenance-participant-type",
                                    "code": "author",
                                    "display": "Author"
                                }
                            ]
                        },
                        "who": {
                            "reference": "Practitioner/f91cb963-a2eb-4b49-9e44-0784fdb37b23",
                            "type": "Practitioner"
                        }
                    }
                ]
            },
            "search": {
                "mode": "include"
            }
        }
    ]
}